Folder: Final-Year-Project-Programmes

File: EDS_1.emsa
#FORMAT      : EMSA/MAS Spectral Data File
#VERSION     : 1.0
#TITLE       : New Site...
#DATE        : 01-FEB-2021
#TIME        : 12:26
#OWNER       : Supervisor
#NPOINTS     : 2000
#NCOLUMNS    : 1
#XUNITS      : eV
#YUNITS      : counts
#DATATYPE    : Y
#XPERCHAN    : 10
#OFFSET      : 0.000000
#LIVETIME  -s: 180.085
#REALTIME  -s: 206.056
#SIGNALTYPE  : EDS
#EDSDET      : SI
#TAUWIND  -cm: 0.000002
#TDEADLYR -cm: 0.000001
#THCWIND     : 0.000030
#ELEVANGLE   : 30
#AZIMANGLE   : 161.5
#BEAMKV   -kV: 10
#EMISSION -uA: 120.278
#PROBECUR -nA: 0.000000
#XTILTSTGE   : 0.000157
#XPOSITION   : -15.54
#YPOSITION   : -3.539334
#ZPOSITION   : 56.7441
##INSTRUMENT : Apreo 2 S HiVac
##SWVERSION  : xT 23.1.0.7363
##USECASE    : OptiPlan
##BEAMSFTX-mm: -0.017228
##BEAMSFTY-mm: 0.003036
##PXHEIGHT-mm: 0.000827
##PXWIDTH -mm: 0.000827
##HFW     -mm: 1.270000
##VFW     -mm: 0.846667
##PRESSURE   : 0.000269
##FOCUSDST-mm: 9.922270
##GAIN       : 1.144948
##OFFSET     : 16.1205
##COUNTRATE  : 6234
##DWELLTM -us: 1.000000
##WORKDIST   : 10
##DEADTIME   : 4.181034
##TIMECNSTNT : 1600
##EDSBOARDREV: 2
##ZEROWIDTH  : 65
##CRYSTMATL  : SI-DRIFT
##WINTYPE    : NORVAR
##CONTAM  -cm: 0.000000
##TOA        : 30.1776
##DETSUBTYPE : 3
##SLIDEPOS-cm: 5.200000
##CRYSTAREA  : 60
##CRYSTTHICK : 0.450000
##CONTMATL   : SDD_LELMT
##WINDCOAT   : ALUM
##WINDTHICK  : 0.030000
##EXPONENT   : 0.000000
##LOWEVADJ   : 0.000000
##SIMAXIMAL  : false
#SPECTRUM    :
0.0,
0.0,
0.0,
564.0,
21295.0,
950.0,
598.0,
702.0,
1569.0,
912.0,
1042.0,
1223.0,
1321.0,
1435.0,
1382.0,
1321.0,
1266.0,
1160.0,
1260.0,
1369.0,
1290.0,
3116.0,
3510.0,
1464.0,
8292.0,
78996.0,
14775.0,
2459.0,
698.0,
651.0,
603.0,
600.0,
669.0,
1362.0,
1646.0,
1146.0,
742.0,
982.0,
1344.0,
599.0,
547.0,
535.0,
446.0,
409.0,
356.0,
399.0,
403.0,
379.0,
377.0,
391.0,
420.0,
325.0,
309.0,
317.0,
309.0,
335.0,
281.0,
290.0,
247.0,
277.0,
328.0,
726.0,
651.0,
300.0,
216.0,
296.0,
509.0,
434.0,
287.0,
206.0,
243.0,
298.0,
191.0,
150.0,
173.0,
175.0,
168.0,
156.0,
136.0,
136.0,
150.0,
147.0,
113.0,
148.0,
110.0,
116.0,
104.0,
117.0,
112.0,
114.0,
91.0,
102.0,
86.0,
101.0,
90.0,
95.0,
100.0,
82.0,
83.0,
81.0,
77.0,
65.0,
74.0,
69.0,
69.0,
52.0,
63.0,
61.0,
64.0,
62.0,
65.0,
68.0,
47.0,
40.0,
42.0,
49.0,
54.0,
37.0,
51.0,
29.0,
45.0,
34.0,
29.0,
23.0,
24.0,
26.0,
26.0,
24.0,
27.0,
21.0,
24.0,
20.0,
22.0,
8.0,
14.0,
12.0,
12.0,
5.0,
7.0,
7.0,
2.0,
0.0,
1.0,
2.0,
1.0,
0.0,
0.0,
0.0,
0.0,
1.0,
0.0,
1.0,
0.0,
0.0,
0.0,
1.0,
0.0,
0.0,
0.0,
0.0,
0.0,
0.0,
0.0,
0.0,
1.0,
0.0,
0.0,
0.0,
0.0,
0.0,
0.0,
0.0,
0.0,
0.0,
0.0,
0.0,
0.0,
0.0,
0.0,
0.0,
0.0,
0.0,
0.0,
0.0,
0.0,
0.0,
0.0,
0.0,
0.0,
0.0,
0.0,
0.0,
0.0,
0.0,
0.0,
0.0,
0.0,
0.0,
0.0,
0.0,
0.0,
0.0,
0.0,
0.0,
0.0,
0.0,
0.0,
0.0,
0.0,
0.0,
0.0,
0.0,
0.0,
0.0,
0.0,
0.0,
0.0,
0.0,
0.0,
0.0,
0.0,
0.0,
0.0,
0.0,
0.0,
0.0,
0.0,
0.0,
0.0,
0.0,
0.0,
0.0,
0.0,
0.0,
0.0,
0.0,
0.0,
0.0,
0.0,
0.0,
0.0,
0.0,
0.0,
0.0,
0.0,
0.0,
0.0,
0.0,
0.0,
0.0,
0.0,
0.0,
0.0,
0.0,
0.0,
0.0,
0.0,
0.0,
0.0,
0.0,
0.0,
0.0,
0.0,
0.0,
0.0,
0.0,
0.0,
0.0,
0.0,
0.0,
0.0,
0.0,
0.0,
0.0,
0.0,
0.0,
0.0,
0.0,
0.0,
0.0,
0.0,
0.0,
0.0,
0.0,
0.0,
0.0,
0.0,
#ENDOFDATA   :